[
  "CDASH Variable",
  "CDASH Variable Label",
  "CDASHIG Core",
  "CDASHIG Variable",
  "CDASHIG Variable Label",
  "CDISC CT Codelist Code(s)",
  "CDISC CT Codelist Code(s), Subset Codes(s)",
  "CDISC CT Codelist Submission Value(s)",
  "CDISC CT Codelist Submission Values(s), Subset Submission Value(s)",
  "CDISC Definition",
  "CDISC Notes",
  "CDISC Submission Value",
  "CDISC Synonym(s)",
  "Case Report Form Completion Instructions",
  "Class",
  "Code",
  "Codelist Code",
  "Codelist Extensible (Yes/No)",
  "Codelist Name",
  "Codelist Submission Value(s)",
  "Controlled Terminology Codelist Code",
  "Core",
  "DRAFT CDASH Definition",
  "DRAFT CDASHIG Definition",
  "Data Collection Scenario/Implementation Option",
  "Data Structure Description",
  "Data Structure Name",
  "Dataset Label",
  "Dataset Name",
  "Definition",
  "Described Value Domain",
  "Described Value Domain(s)",
  "Domain",
  "Domain Specific",
  "Examples",
  "Implementation Notes",
  "Mapping Instructions",
  "NCI Preferred Term",
  "Notes",
  "Prompt",
  "Question Text",
  "Role",
  "SDTM Target",
  "SDTMIG Target",
  "Standard and Date",
  "Structure",
  "Subclass",
  "Type",
  "Usage Restrictions",
  "Value List",
  "Variable C-Code",
  "Variable Label",
  "Variable Name",
  "Variable Order",
  "Variable Set",
  "Variables Qualified",
  "Version"
]